# Version 2.1 - nm, norm@500 to 1 km10_5250.fits_g45
# Wavelength(nm)  Flambda(ergs/cm^s/s/nm)
270.50 0.1902331
271.50 0.1244016
272.50 0.08093234
273.50 0.1230102
274.50 0.06665585
275.50 0.1066127
276.50 0.1532719
277.50 0.1537585
278.50 0.07374874
279.50 0.02623533
280.50 0.03319436
281.50 0.1214909
282.50 0.1797777
283.50 0.1431613
284.50 0.06630141
285.50 0.0297672
286.50 0.1131448
287.50 0.2022782
288.50 0.1899782
289.50 0.2555067
291.00 0.3406918
293.00 0.2986506
295.00 0.2653857
297.00 0.2559665
299.00 0.2659641
301.00 0.2560272
303.00 0.2824079
305.00 0.3039095
307.00 0.3199067
309.00 0.2841343
311.00 0.3400904
313.00 0.3140204
315.00 0.2959688
317.00 0.3350465
319.00 0.307396
321.00 0.3428358
323.00 0.3144118
325.00 0.4320879
327.00 0.5149128
329.00 0.4979677
331.00 0.4556011
333.00 0.4596745
335.00 0.4443484
337.00 0.292703
339.00 0.3730255
341.00 0.3861136
343.00 0.4448355
345.00 0.4353213
347.00 0.4750087
349.00 0.5368579
351.00 0.5775407
353.00 0.5310234
355.00 0.629587
357.00 0.4610867
359.00 0.4358747
361.00 0.5315858
363.00 0.5370283
364.00 0.5757189
365.00 0.6063431
367.00 0.6541615
369.00 0.599727
371.00 0.6213371
373.00 0.4113641
375.00 0.4764539
377.00 0.6322413
379.00 0.6551768
381.00 0.6379673
383.00 0.3578007
385.00 0.5532393
387.00 0.5129415
389.00 0.5541724
391.00 0.6419906
393.00 0.3544327
395.00 0.636757
397.00 0.4515259
399.00 0.8113575
401.00 0.8534612
403.00 0.8441087
405.00 0.8093428
407.00 0.7765896
409.00 0.8968023
411.00 0.8782474
413.00 0.8707074
415.00 0.8462938
417.00 0.8846376
419.00 0.8221977
421.00 0.8194075
423.00 0.7752668
425.00 0.7673789
427.00 0.7096847
429.00 0.6564151
431.00 0.5321443
433.00 0.8216796
435.00 0.7968301
437.00 0.8315346
439.00 0.7724123
441.00 0.8494144
443.00 0.9496053
445.00 0.9379803
447.00 0.9761847
449.00 0.9949522
451.00 1.054206
453.00 0.9876725
455.00 1.020106
457.00 1.060111
459.00 1.029223
461.00 1.040001
463.00 1.044641
465.00 1.043233
467.00 1.067817
469.00 1.059796
471.00 1.045166
473.00 1.061109
475.00 1.066776
477.00 1.064484
479.00 1.061011
481.00 1.066459
483.00 1.061353
485.00 1.039345
487.00 0.9549069
489.00 1.03087
491.00 1.040666
493.00 1.016953
495.00 1.036776
497.00 1.06322
499.00 1.013747
501.00 0.9862534
503.00 1.030562
505.00 1.016553
507.00 1.045412
509.00 1.021854
511.00 1.026191
513.00 1.016088
515.00 0.9856931
517.00 0.9099222
519.00 0.9311901
521.00 0.9805882
523.00 1.007262
525.00 1.041186
527.00 0.9588618
529.00 1.036001
531.00 1.057581
533.00 0.9920312
535.00 1.036449
537.00 1.023305
539.00 1.0214
541.00 1.003296
543.00 1.012422
545.00 1.017489
547.00 1.023044
549.00 1.032015
551.00 1.02654
553.00 1.033483
555.00 1.039157
557.00 1.013
559.00 1.006468
561.00 1.013811
563.00 1.028122
565.00 1.031761
567.00 1.016061
569.00 1.0243
571.00 1.005382
573.00 1.032972
575.00 1.021764
577.00 1.022309
579.00 1.013991
581.00 1.018333
583.00 1.021405
585.00 1.009122
587.00 1.008128
589.00 0.9476383
591.00 1.000255
593.00 0.99948
595.00 1.000224
597.00 0.9973375
599.00 0.9944263
601.00 0.9842074
603.00 0.9837964
605.00 0.9923586
607.00 0.9839005
609.00 0.9790296
611.00 0.973082
613.00 0.9466753
615.00 0.9642435
617.00 0.9411397
619.00 0.9610599
621.00 0.9599532
623.00 0.9472102
625.00 0.9354921
627.00 0.9522755
629.00 0.9499339
631.00 0.9347189
633.00 0.938387
635.00 0.942063
637.00 0.9399855
639.00 0.9344874
641.00 0.9192837
643.00 0.9231098
645.00 0.9197543
647.00 0.9151446
649.00 0.9043108
651.00 0.9151382
653.00 0.9151784
655.00 0.8828655
656.10 0.7878576
659.00 0.8928183
661.00 0.9046657
663.00 0.9032671
665.00 0.9000626
667.00 0.8909175
669.00 0.8976169
671.00 0.8882864
673.00 0.8909589
675.00 0.88514
677.00 0.8834837
679.00 0.8805757
681.00 0.8761378
683.00 0.87601
685.00 0.8666383
687.00 0.8669875
689.00 0.8670867
691.00 0.8621513
693.00 0.8600205
695.00 0.8548656
697.00 0.8544617
699.00 0.8503143
701.00 0.8426803
703.00 0.8435865
705.00 0.8418443
707.00 0.8370735
709.00 0.8335383
711.00 0.833335
713.00 0.8238517
715.00 0.8200233
717.00 0.8209145
719.00 0.808954
721.00 0.8105765
723.00 0.8134443
725.00 0.8113468
727.00 0.8082754
729.00 0.7989235
731.00 0.8002631
733.00 0.7967337
735.00 0.796555
737.00 0.7952732
739.00 0.785969
741.00 0.7726432
743.00 0.7812329
745.00 0.7794207
747.00 0.7792711
749.00 0.7734039
751.00 0.7698359
753.00 0.7702108
755.00 0.7693239
757.00 0.7645224
759.00 0.7601423
761.00 0.7581261
763.00 0.7565739
765.00 0.7547519
767.00 0.741142
769.00 0.7496715
771.00 0.7404246
773.00 0.7415406
775.00 0.7348999
777.00 0.7393876
779.00 0.7347145
781.00 0.7334073
783.00 0.7259717
785.00 0.7239778
787.00 0.7257455
789.00 0.7224948
791.00 0.7172996
793.00 0.708943
795.00 0.706285
797.00 0.7111435
799.00 0.7086095
801.00 0.7008607
803.00 0.7017493
805.00 0.6956319
807.00 0.6972969
809.00 0.6898897
811.00 0.6913378
813.00 0.6896702
815.00 0.6867749
817.00 0.6840975
819.00 0.6716924
821.00 0.6740554
823.00 0.6689224
825.00 0.6716481
827.00 0.6718214
829.00 0.6685411
831.00 0.6639366
833.00 0.6539086
835.00 0.6591886
837.00 0.6572554
839.00 0.645568
841.00 0.6525309
843.00 0.6457054
845.00 0.6470863
847.00 0.6394986
849.00 0.6361333
851.00 0.6142846
853.00 0.6311985
855.00 0.5675292
857.00 0.6332126
859.00 0.627854
861.00 0.6243374
863.00 0.624891
865.00 0.6207511
867.00 0.5633734
869.00 0.6073636
871.00 0.6148362
873.00 0.6134743
875.00 0.6060119
877.00 0.6096728
879.00 0.6054125
881.00 0.5953117
883.00 0.5964057
885.00 0.5975026
887.00 0.5904801
889.00 0.5964219
891.00 0.5947167
893.00 0.5897766
895.00 0.5862655
897.00 0.5861677
899.00 0.5852311
901.00 0.5702142
903.00 0.5793388
905.00 0.5793668
907.00 0.5751308
909.00 0.5657827
911.00 0.5687314
913.00 0.5680097
915.00 0.5670086
917.00 0.5648255
919.00 0.5639143
921.00 0.5584871
923.00 0.55379
925.00 0.5531363
927.00 0.5530888
929.00 0.5519072
931.00 0.5507814
933.00 0.5481531
935.00 0.5451401
937.00 0.5419556
939.00 0.5421512
941.00 0.5326158
943.00 0.5378087
945.00 0.5334998
947.00 0.5339534
949.00 0.532405
951.00 0.5299977
953.00 0.5278161
955.00 0.5199669
957.00 0.5226209
959.00 0.5223475
961.00 0.5193823
963.00 0.5164211
965.00 0.5126221
967.00 0.5116404
969.00 0.5121061
971.00 0.5091047
973.00 0.5074241
975.00 0.5038722
977.00 0.5032239
979.00 0.5008184
981.00 0.5000273
983.00 0.4985254
985.00 0.4968806
987.00 0.493688
989.00 0.4916259
991.00 0.4904494
993.00 0.4896204
995.00 0.4877575
997.00 0.4860164
999.00 0.4839843
1002.50 0.4804429
1007.50 0.4739101
1012.50 0.4715642
1017.50 0.4663253
1022.50 0.4624628
1027.50 0.4588614
1032.50 0.4527232
1037.50 0.4488604
1042.50 0.4461158
1047.50 0.4411726
1052.50 0.4379369
1057.50 0.432888
1062.50 0.4281935
1067.50 0.4228479
1072.50 0.4211696
1077.50 0.4153195
1082.50 0.4101723
1087.50 0.4079708
1092.50 0.4037538
1097.50 0.4009899
1102.50 0.3993564
1107.50 0.3964519
1112.50 0.3923635
1117.50 0.3884083
1122.50 0.385927
1127.50 0.3804134
1132.50 0.3786387
1137.50 0.3745754
1142.50 0.3696816
1147.50 0.3694279
1152.50 0.3663453
1157.50 0.3625087
1162.50 0.3567616
1167.50 0.3554758
1172.50 0.3540553
1177.50 0.3489882
1182.50 0.3449897
1187.50 0.3414202
1192.50 0.3422425
1197.50 0.3337998
1202.50 0.3342175
1207.50 0.330993
1212.50 0.3300333
1217.50 0.3282774
1222.50 0.3255045
1227.50 0.3219486
1232.50 0.3201763
1237.50 0.3174699
1242.50 0.3148011
1247.50 0.312603
1252.50 0.309958
1257.50 0.3075768
1262.50 0.304989
1267.50 0.3023596
1272.50 0.3004768
1277.50 0.2982462
1282.50 0.2902579
1287.50 0.2933614
1292.50 0.2909296
1297.50 0.2892226
1302.50 0.2867126
1307.50 0.284854
1312.50 0.2811096
1317.50 0.2792628
1322.50 0.2784164
1327.50 0.2753125
1332.50 0.2738653
1337.50 0.2718133
1342.50 0.2703901
1347.50 0.2683226
1352.50 0.2664346
1357.50 0.2636165
1362.50 0.2619655
1367.50 0.2604374
1372.50 0.2587379
1377.50 0.2567819
1382.50 0.2551387
1387.50 0.2531052
1392.50 0.2516462
1397.50 0.2498637
1402.50 0.2474184
1407.50 0.2464516
1412.50 0.2440744
1417.50 0.2432128
1422.50 0.2402384
1427.50 0.2378644
1432.50 0.2378745
1437.50 0.2367865
1442.50 0.2329009
1447.50 0.2335121
1452.50 0.2305248
1457.00 0.2294482
1462.00 0.2290507
1467.50 0.2272791
1472.50 0.2248054
1477.50 0.2238538
1482.50 0.222463
1487.50 0.2189364
1492.50 0.2201861
1497.50 0.2179209
1502.50 0.2127787
1507.50 0.212811
1512.50 0.2141837
1517.50 0.2128605
1522.50 0.2106079
1527.50 0.2095738
1532.50 0.2082521
1537.50 0.2069588
1542.50 0.2059827
1547.50 0.2046844
1552.50 0.2027204
1557.50 0.2010041
1562.50 0.2004221
1567.50 0.1981285
1572.50 0.1967312
1577.50 0.1932156
1582.50 0.1938284
1587.50 0.1900185
1592.50 0.1914885
1597.50 0.1902515
1605.00 0.1880935
1615.00 0.1845605
1625.00 0.1826928
1635.00 0.178979
1645.00 0.1748083
1655.00 0.1728841
1665.00 0.16941
1675.00 0.1651443
1685.00 0.1611431
1695.00 0.1597167
1705.00 0.1560235
1715.00 0.1528464
1725.00 0.1499244
1735.00 0.1452067
1745.00 0.1440983
1755.00 0.1416353
1765.00 0.1388916
1775.00 0.1361913
1785.00 0.1337059
1795.00 0.1311445
1805.00 0.1285752
1815.00 0.1244528
1825.00 0.1234711
1835.00 0.1214087
1845.00 0.1187205
1855.00 0.1169242
1865.00 0.1144096
1875.00 0.1086629
1885.00 0.1103654
1895.00 0.1077159
1905.00 0.1065779
1915.00 0.1045145
1925.00 0.1027176
1935.00 0.1005978
1945.00 0.09705938
1955.00 0.09715232
1965.00 0.09547134
1975.00 0.09343798
1985.00 0.09204512
1995.00 0.09054282
2005.00 0.08915336
2015.00 0.08766602
2025.00 0.08596237
2035.00 0.08434451
2045.00 0.08318343
2055.00 0.08173031
2065.00 0.08010542
2075.00 0.07888244
2085.00 0.07761008
2095.00 0.07610286
2105.00 0.07503753
2115.00 0.07376768
2125.00 0.07253464
2135.00 0.07135675
2145.00 0.07019602
2155.00 0.0690474
2165.00 0.06672559
2175.00 0.06668816
2185.00 0.06556341
2195.00 0.06464491
2205.00 0.06336205
2215.00 0.06257912
2225.00 0.0615131
2235.00 0.06054869
2245.00 0.05959755
2255.00 0.05866083
2265.00 0.05770403
2275.00 0.05684673
2285.00 0.05588426
2295.00 0.05468315
