# Version 2.1 - nm, norm@500 to 1 km10_6000.fits_g45
# Wavelength(nm)  Flambda(ergs/cm^s/s/nm)
270.50 0.3975169
271.50 0.3151695
272.50 0.3034008
273.50 0.3479181
274.50 0.2154169
275.50 0.2816196
276.50 0.3581782
277.50 0.3839764
278.50 0.2551307
279.50 0.0760274
280.50 0.105149
281.50 0.3749824
282.50 0.4672327
283.50 0.4446203
284.50 0.3581688
285.50 0.1841791
286.50 0.4405094
287.50 0.4891357
288.50 0.4524262
289.50 0.4879385
291.00 0.5774435
293.00 0.5386944
295.00 0.5263779
297.00 0.5411524
299.00 0.5484814
301.00 0.5649602
303.00 0.5695629
305.00 0.5990221
307.00 0.5927668
309.00 0.5806432
311.00 0.5966589
313.00 0.5962395
315.00 0.5733234
317.00 0.6084125
319.00 0.5692433
321.00 0.6175455
323.00 0.5750034
325.00 0.6567009
327.00 0.7235483
329.00 0.7141654
331.00 0.7181688
333.00 0.7117938
335.00 0.7069962
337.00 0.6083005
339.00 0.6797689
341.00 0.6782174
343.00 0.7126925
345.00 0.7073005
347.00 0.7265196
349.00 0.7527529
351.00 0.7689549
353.00 0.7385392
355.00 0.8055332
357.00 0.7186716
359.00 0.6930235
361.00 0.7355925
363.00 0.7455117
364.00 0.7608261
365.00 0.8041082
367.00 0.8012752
369.00 0.7595544
371.00 0.796561
373.00 0.7142016
375.00 0.7745505
377.00 0.8494689
379.00 0.8870194
381.00 0.9256906
383.00 0.7189521
385.00 0.9280512
387.00 0.9157292
389.00 0.8522487
391.00 0.9320732
393.00 0.6364904
395.00 0.912347
397.00 0.6954084
399.00 1.010898
401.00 1.037834
403.00 1.040668
405.00 1.021724
407.00 1.003724
409.00 1.044974
411.00 0.9753635
413.00 1.046188
415.00 1.046373
417.00 1.056739
419.00 1.026385
421.00 1.02312
423.00 0.9919142
425.00 1.003483
427.00 0.9801245
429.00 0.9393242
431.00 0.8373894
433.00 0.9947613
435.00 0.9448338
437.00 1.033458
439.00 1.003076
441.00 1.027618
443.00 1.056875
445.00 1.047917
447.00 1.056406
449.00 1.065506
451.00 1.093962
453.00 1.055353
455.00 1.063336
457.00 1.091176
459.00 1.07062
461.00 1.076274
463.00 1.07136
465.00 1.070869
467.00 1.082947
469.00 1.076929
471.00 1.058604
473.00 1.071436
475.00 1.072669
477.00 1.071463
479.00 1.064364
481.00 1.065052
483.00 1.059787
485.00 1.020857
487.00 0.9128733
489.00 1.032569
491.00 1.037314
493.00 1.01873
495.00 1.029066
497.00 1.042602
499.00 1.009068
501.00 0.9909316
503.00 1.021386
505.00 1.010134
507.00 1.023073
509.00 1.009049
511.00 1.010195
513.00 1.002221
515.00 0.9830914
517.00 0.9450164
519.00 0.9498494
521.00 0.96773
523.00 0.9748195
525.00 0.9944153
527.00 0.9481674
529.00 0.9827246
531.00 0.987067
533.00 0.9552584
535.00 0.9747431
537.00 0.9656055
539.00 0.9628145
541.00 0.9473144
543.00 0.9562398
545.00 0.9543189
547.00 0.9516126
549.00 0.953821
551.00 0.9506221
553.00 0.9497687
555.00 0.9513309
557.00 0.9343127
559.00 0.9303737
561.00 0.9295454
563.00 0.9358058
565.00 0.9338195
567.00 0.9229925
569.00 0.925856
571.00 0.9157099
573.00 0.9247769
575.00 0.9169847
577.00 0.9147877
579.00 0.9097314
581.00 0.9079966
583.00 0.9062533
585.00 0.8983774
587.00 0.895131
589.00 0.8734226
591.00 0.8877904
593.00 0.8844308
595.00 0.8823134
597.00 0.8780861
599.00 0.874234
601.00 0.8682721
603.00 0.8639201
605.00 0.8657853
607.00 0.8606694
609.00 0.8559691
611.00 0.8509073
613.00 0.8349046
615.00 0.8396992
617.00 0.8302585
619.00 0.8363518
621.00 0.8332847
623.00 0.8256656
625.00 0.815571
627.00 0.8234284
629.00 0.8201741
631.00 0.8102465
633.00 0.8087013
635.00 0.8089866
637.00 0.8053398
639.00 0.8014882
641.00 0.7902371
643.00 0.7893913
645.00 0.7862743
647.00 0.7828902
649.00 0.7735511
651.00 0.7760108
653.00 0.7694419
655.00 0.7272904
656.10 0.6179493
659.00 0.7486666
661.00 0.7598156
663.00 0.7586321
665.00 0.7564996
667.00 0.7510424
669.00 0.7512993
671.00 0.7461645
673.00 0.7442492
675.00 0.7402495
677.00 0.7370317
679.00 0.7336868
681.00 0.7298364
683.00 0.7273214
685.00 0.7217066
687.00 0.719977
689.00 0.7174947
691.00 0.7136096
693.00 0.7107391
695.00 0.7071882
697.00 0.7043033
699.00 0.7009874
701.00 0.6954489
703.00 0.6938231
705.00 0.6912631
707.00 0.6876156
709.00 0.6842325
711.00 0.6814742
713.00 0.6759248
715.00 0.6728188
717.00 0.6706039
719.00 0.6644628
721.00 0.6627159
723.00 0.6618662
725.00 0.6594109
727.00 0.6562478
729.00 0.6503437
731.00 0.6491475
733.00 0.6458018
735.00 0.6442013
737.00 0.6416048
739.00 0.6357761
741.00 0.6267807
743.00 0.6298097
745.00 0.6278397
747.00 0.626258
749.00 0.6216901
751.00 0.6181286
753.00 0.6170255
755.00 0.6149241
757.00 0.6111905
759.00 0.6077628
761.00 0.6050685
763.00 0.6028371
765.00 0.6001171
767.00 0.5926963
769.00 0.5944944
771.00 0.5894312
773.00 0.5886599
775.00 0.5839084
777.00 0.5827
779.00 0.5808348
781.00 0.5782744
783.00 0.5734075
785.00 0.5710512
787.00 0.5704839
789.00 0.5678319
791.00 0.5645816
793.00 0.5585097
795.00 0.5565016
797.00 0.5571566
799.00 0.5546824
801.00 0.5495161
803.00 0.548776
805.00 0.5446713
807.00 0.544175
809.00 0.5397937
811.00 0.5389828
813.00 0.5367912
815.00 0.5340933
817.00 0.5315368
819.00 0.5242047
821.00 0.5245721
823.00 0.5201059
825.00 0.5204501
827.00 0.5192123
829.00 0.5166137
831.00 0.5131644
833.00 0.5067379
835.00 0.5084815
837.00 0.5063332
839.00 0.4999659
841.00 0.5014811
843.00 0.4980212
845.00 0.4960535
847.00 0.4910641
849.00 0.4893717
851.00 0.4740634
853.00 0.4852281
855.00 0.4444742
857.00 0.48424
859.00 0.4788726
861.00 0.4756517
863.00 0.4779159
865.00 0.4735077
867.00 0.4367737
869.00 0.4662807
871.00 0.4685555
873.00 0.4662225
875.00 0.455371
877.00 0.4619123
879.00 0.4599032
881.00 0.4542725
883.00 0.4534075
885.00 0.4516614
887.00 0.4402539
889.00 0.4500763
891.00 0.4479838
893.00 0.4447461
895.00 0.4430319
897.00 0.4418003
899.00 0.4400236
901.00 0.4233845
903.00 0.4327413
905.00 0.4343432
907.00 0.4298283
909.00 0.4239669
911.00 0.4260798
913.00 0.4258986
915.00 0.4241796
917.00 0.4222176
919.00 0.4206697
921.00 0.4159048
923.00 0.4008089
925.00 0.4112521
927.00 0.4118713
929.00 0.4108255
931.00 0.4091856
933.00 0.4070607
935.00 0.4049882
937.00 0.4032067
939.00 0.4017165
941.00 0.3944781
943.00 0.3977275
945.00 0.3953364
947.00 0.3945267
949.00 0.3929228
951.00 0.3908727
953.00 0.3880375
955.00 0.3711107
957.00 0.3846476
959.00 0.3840782
961.00 0.3817274
963.00 0.3790948
965.00 0.377988
967.00 0.375591
969.00 0.375372
971.00 0.373706
973.00 0.3720819
975.00 0.3693905
977.00 0.368424
979.00 0.3668742
981.00 0.3652764
983.00 0.3638029
985.00 0.3622055
987.00 0.360119
989.00 0.3582573
991.00 0.356974
993.00 0.3558624
995.00 0.3543403
997.00 0.3528052
999.00 0.3511946
1002.50 0.3466282
1007.50 0.3388598
1012.50 0.3405697
1017.50 0.3365405
1022.50 0.3332924
1027.50 0.3299206
1032.50 0.3256964
1037.50 0.3223731
1042.50 0.3192848
1047.50 0.3150254
1052.50 0.3123984
1057.50 0.3086707
1062.50 0.3046728
1067.50 0.2994012
1072.50 0.2982525
1077.50 0.2944819
1082.50 0.2908279
1087.50 0.2884682
1092.50 0.2790751
1097.50 0.2818744
1102.50 0.2807085
1107.50 0.2781615
1112.50 0.2750091
1117.50 0.2719843
1122.50 0.2696222
1127.50 0.2657903
1132.50 0.2636295
1137.50 0.2611207
1142.50 0.2575561
1147.50 0.2562284
1152.50 0.2536634
1157.50 0.2508855
1162.50 0.2471538
1167.50 0.2453117
1172.50 0.2436928
1177.50 0.2398238
1182.50 0.2374049
1187.50 0.2347464
1192.50 0.2342506
1197.50 0.2293472
1202.50 0.2285315
1207.50 0.2259987
1212.50 0.2248402
1217.50 0.2230842
1222.50 0.220918
1227.50 0.2183666
1232.50 0.2166566
1237.50 0.2145389
1242.50 0.2124937
1247.50 0.2105807
1252.50 0.2085248
1257.50 0.2064902
1262.50 0.2044995
1267.50 0.2025683
1272.50 0.2008408
1277.50 0.1984796
1282.50 0.1879143
1287.50 0.1949061
1292.50 0.1933967
1297.50 0.1917734
1302.50 0.1899086
1307.50 0.1883104
1312.50 0.1860552
1317.50 0.1843146
1322.50 0.183271
1327.50 0.1813391
1332.50 0.1798915
1337.50 0.1782278
1342.50 0.1768475
1347.50 0.1752496
1352.50 0.1737145
1357.50 0.1718996
1362.50 0.1706025
1367.50 0.1690972
1372.50 0.1674685
1377.50 0.1661463
1382.50 0.1647694
1387.50 0.1634232
1392.50 0.1619915
1397.50 0.1605968
1402.50 0.1590231
1407.50 0.1578711
1412.50 0.1562052
1417.50 0.1552335
1422.50 0.1533705
1427.50 0.1518678
1432.50 0.1511989
1437.50 0.1500955
1442.50 0.1475485
1447.50 0.1475366
1452.50 0.1453912
1457.00 0.1447652
1462.00 0.143856
1467.50 0.142583
1472.50 0.141037
1477.50 0.1399558
1482.50 0.138943
1487.50 0.1367769
1492.50 0.1368872
1497.50 0.1354408
1502.50 0.1329288
1507.50 0.1322705
1512.50 0.1321961
1517.50 0.1311104
1522.50 0.1296596
1527.50 0.1286795
1532.50 0.1275652
1537.50 0.1265374
1542.50 0.1254196
1547.50 0.1245597
1552.50 0.1233261
1557.50 0.1218735
1562.50 0.121638
1567.50 0.1198797
1572.50 0.1186106
1577.50 0.1174129
1582.50 0.1171472
1587.50 0.1140266
1592.50 0.1150372
1597.50 0.1146141
1605.00 0.1126789
1615.00 0.1097711
1625.00 0.1093379
1635.00 0.1063813
1645.00 0.1032202
1655.00 0.1030605
1665.00 0.1009785
1675.00 0.09788451
1685.00 0.0946218
1695.00 0.09499456
1705.00 0.09292306
1715.00 0.09105482
1725.00 0.08907994
1735.00 0.08457473
1745.00 0.08534164
1755.00 0.08408603
1765.00 0.08241701
1775.00 0.08083042
1785.00 0.07928567
1795.00 0.0777588
1805.00 0.07616132
1815.00 0.07223935
1825.00 0.07278694
1835.00 0.07188968
1845.00 0.07039615
1855.00 0.06921424
1865.00 0.06767549
1875.00 0.06299923
1885.00 0.06517304
1895.00 0.06393926
1905.00 0.06310124
1915.00 0.0619136
1925.00 0.06080582
1935.00 0.05952572
1945.00 0.05619472
1955.00 0.05741968
1965.00 0.05651525
1975.00 0.05539477
1985.00 0.0545389
1995.00 0.05358167
2005.00 0.05268751
2015.00 0.05179389
2025.00 0.05082459
2035.00 0.04987713
2045.00 0.0491307
2055.00 0.04827515
2065.00 0.04734657
2075.00 0.04660559
2085.00 0.0458266
2095.00 0.04498145
2105.00 0.04428824
2115.00 0.04353693
2125.00 0.04280429
2135.00 0.04210041
2145.00 0.04141256
2155.00 0.04067218
2165.00 0.03844428
2175.00 0.03924864
2185.00 0.03867649
2195.00 0.03812383
2205.00 0.03741972
2215.00 0.03688139
2225.00 0.03628722
2235.00 0.03570808
2245.00 0.03513635
2255.00 0.03456245
2265.00 0.03402245
2275.00 0.03348842
2285.00 0.0329702
2295.00 0.03246391
