# Version 2.1 - nm, norm@500 to 1 km10_4500.fits_g45
# Wavelength(nm)  Flambda(ergs/cm^s/s/nm)
270.50 0.0360965
271.50 0.01797151
272.50 0.009405346
273.50 0.01570595
274.50 0.01276074
275.50 0.01809505
276.50 0.03060268
277.50 0.03080779
278.50 0.01615301
279.50 0.009622582
280.50 0.01074927
281.50 0.01867559
282.50 0.01798829
283.50 0.01277013
284.50 0.008885608
285.50 0.005013881
286.50 0.01164188
287.50 0.01656973
288.50 0.02692176
289.50 0.04738507
291.00 0.1177657
293.00 0.09024804
295.00 0.05343958
297.00 0.0498775
299.00 0.04952646
301.00 0.04384284
303.00 0.05842377
305.00 0.06113938
307.00 0.08858324
309.00 0.06979184
311.00 0.1255543
313.00 0.1075838
315.00 0.1270922
317.00 0.1609127
319.00 0.1307772
321.00 0.1424787
323.00 0.1313821
325.00 0.2299807
327.00 0.3005018
329.00 0.2984704
331.00 0.2378094
333.00 0.2360545
335.00 0.2129689
337.00 0.0993203
339.00 0.1362083
341.00 0.1446555
343.00 0.1887803
345.00 0.1808449
347.00 0.1868904
349.00 0.2608247
351.00 0.3368813
353.00 0.307237
355.00 0.4198958
357.00 0.1888475
359.00 0.1917488
361.00 0.2811897
363.00 0.3132979
364.00 0.381284
365.00 0.4057747
367.00 0.5017329
369.00 0.3865923
371.00 0.3260273
373.00 0.1400349
375.00 0.176809
377.00 0.3799351
379.00 0.4195653
381.00 0.3687032
383.00 0.1352128
385.00 0.275517
387.00 0.2470759
389.00 0.2881914
391.00 0.413208
393.00 0.1612865
395.00 0.3903797
397.00 0.2545118
399.00 0.6610468
401.00 0.7405761
403.00 0.6646055
405.00 0.6490212
407.00 0.5813067
409.00 0.7941633
411.00 0.6533991
413.00 0.6806735
415.00 0.6152059
417.00 0.6700012
419.00 0.6472435
421.00 0.6213237
423.00 0.5369739
425.00 0.6091063
427.00 0.5557108
429.00 0.5449604
431.00 0.4897386
433.00 0.760265
435.00 0.7897472
437.00 0.8137814
439.00 0.7066324
441.00 0.7591094
443.00 0.8939736
445.00 0.8915398
447.00 0.9655628
449.00 1.002222
451.00 1.121197
453.00 0.9820511
455.00 1.068084
457.00 1.124023
459.00 1.088006
461.00 1.102501
463.00 1.122856
465.00 1.102793
467.00 1.164744
469.00 1.143423
471.00 1.114178
473.00 1.126827
475.00 1.122259
477.00 1.083801
479.00 1.107765
481.00 1.172748
483.00 1.159592
485.00 1.162253
487.00 1.085298
489.00 1.126596
491.00 1.14734
493.00 1.090102
495.00 1.107782
497.00 1.125143
499.00 1.03424
501.00 0.9657603
503.00 1.019116
505.00 0.957109
507.00 0.9650438
509.00 0.9298955
511.00 0.9179073
513.00 0.8895926
515.00 0.8329857
517.00 0.7770982
519.00 0.8553267
521.00 0.9324436
523.00 1.14138
525.00 1.21757
527.00 1.034074
529.00 1.215337
531.00 1.280715
533.00 1.132788
535.00 1.23422
537.00 1.199159
539.00 1.199792
541.00 1.172991
543.00 1.169559
545.00 1.183758
547.00 1.24086
549.00 1.259
551.00 1.226762
553.00 1.279724
555.00 1.291367
557.00 1.250306
559.00 1.226471
561.00 1.262744
563.00 1.295384
565.00 1.313609
567.00 1.286697
569.00 1.303349
571.00 1.263906
573.00 1.324142
575.00 1.31604
577.00 1.3199
579.00 1.295002
581.00 1.318986
583.00 1.332163
585.00 1.309585
587.00 1.309318
589.00 1.049057
591.00 1.292202
593.00 1.306601
595.00 1.309365
597.00 1.314569
599.00 1.313629
601.00 1.297188
603.00 1.307897
605.00 1.320412
607.00 1.306993
609.00 1.297046
611.00 1.29398
613.00 1.239314
615.00 1.289797
617.00 1.220281
619.00 1.289055
621.00 1.288044
623.00 1.267021
625.00 1.243682
627.00 1.275356
629.00 1.283814
631.00 1.262817
633.00 1.272575
635.00 1.285457
637.00 1.286569
639.00 1.279778
641.00 1.257364
643.00 1.263647
645.00 1.256334
647.00 1.249595
649.00 1.234484
651.00 1.267052
653.00 1.280598
655.00 1.254251
656.10 1.198297
659.00 1.253615
661.00 1.267456
663.00 1.269061
665.00 1.265093
667.00 1.250922
669.00 1.268161
671.00 1.248993
673.00 1.264869
675.00 1.250057
677.00 1.257297
679.00 1.253407
681.00 1.248257
683.00 1.254314
685.00 1.239431
687.00 1.23948
689.00 1.244882
691.00 1.240002
693.00 1.235911
695.00 1.228763
697.00 1.235161
699.00 1.224838
701.00 1.219417
703.00 1.223978
705.00 1.224701
707.00 1.216123
709.00 1.213544
711.00 1.215476
713.00 1.204275
715.00 1.192514
717.00 1.204609
719.00 1.18175
721.00 1.182116
723.00 1.198815
725.00 1.190875
727.00 1.195235
729.00 1.184845
731.00 1.186329
733.00 1.177925
735.00 1.176995
737.00 1.183927
739.00 1.171998
741.00 1.154526
743.00 1.168465
745.00 1.16561
747.00 1.166694
749.00 1.161078
751.00 1.159125
753.00 1.162953
755.00 1.163365
757.00 1.157894
759.00 1.151135
761.00 1.151408
763.00 1.150933
765.00 1.149283
767.00 1.117741
769.00 1.144406
771.00 1.124238
773.00 1.134906
775.00 1.123674
777.00 1.137059
779.00 1.130212
781.00 1.130357
783.00 1.118485
785.00 1.117728
787.00 1.123419
789.00 1.119029
791.00 1.108517
793.00 1.100599
795.00 1.094227
797.00 1.107558
799.00 1.103552
801.00 1.093607
803.00 1.095026
805.00 1.085916
807.00 1.089846
809.00 1.080533
811.00 1.084651
813.00 1.084758
815.00 1.081682
817.00 1.078686
819.00 1.048505
821.00 1.061197
823.00 1.058652
825.00 1.062867
827.00 1.066283
829.00 1.061423
831.00 1.053825
833.00 1.029954
835.00 1.04845
837.00 1.043658
839.00 1.004853
841.00 1.040008
843.00 1.01871
845.00 1.036529
847.00 1.022777
849.00 1.021209
851.00 0.9818818
853.00 1.015686
855.00 0.9065655
857.00 1.022992
859.00 1.014603
861.00 1.009637
863.00 1.011073
865.00 1.007824
867.00 0.9022106
869.00 0.9683793
871.00 1.000686
873.00 0.9999566
875.00 0.9913074
877.00 0.9943119
879.00 0.9908111
881.00 0.9672209
883.00 0.9681625
885.00 0.9792139
887.00 0.97383
889.00 0.9821536
891.00 0.9806153
893.00 0.973108
895.00 0.9649674
897.00 0.9677523
899.00 0.9678713
901.00 0.9389288
903.00 0.9585331
905.00 0.9622465
907.00 0.9583177
909.00 0.9389206
911.00 0.9451036
913.00 0.9451256
915.00 0.9458497
917.00 0.9432204
919.00 0.9436774
921.00 0.9355465
923.00 0.9368137
925.00 0.9285912
927.00 0.9283998
929.00 0.9241358
931.00 0.9274562
933.00 0.9241929
935.00 0.9193672
937.00 0.9106994
939.00 0.916327
941.00 0.9043188
943.00 0.9114152
945.00 0.9013701
947.00 0.9061986
949.00 0.9044606
951.00 0.9014128
953.00 0.8985701
955.00 0.8898204
957.00 0.8886826
959.00 0.8920319
961.00 0.882958
963.00 0.8842472
965.00 0.8690309
967.00 0.8700337
969.00 0.8745538
971.00 0.8685188
973.00 0.8641212
975.00 0.8629958
977.00 0.8631865
979.00 0.8529183
981.00 0.8629676
983.00 0.8601201
985.00 0.8593918
987.00 0.8544285
989.00 0.8519761
991.00 0.8506628
993.00 0.849461
995.00 0.8472095
997.00 0.8451832
999.00 0.8424417
1002.50 0.8376483
1007.50 0.8309263
1012.50 0.8259967
1017.50 0.8186181
1022.50 0.8133973
1027.50 0.8094485
1032.50 0.7986552
1037.50 0.7939004
1042.50 0.7923496
1047.50 0.7841051
1052.50 0.7815873
1057.50 0.7728637
1062.50 0.7689225
1067.50 0.7614751
1072.50 0.7586255
1077.50 0.7504106
1082.50 0.742133
1087.50 0.7400179
1092.50 0.7384623
1097.50 0.7311133
1102.50 0.7288887
1107.50 0.7251477
1112.50 0.7194692
1117.50 0.7130962
1122.50 0.7105048
1127.50 0.7003192
1132.50 0.6992393
1137.50 0.6914621
1142.50 0.6832889
1147.50 0.6865852
1152.50 0.6830743
1157.50 0.676043
1162.50 0.6647168
1167.50 0.6647612
1172.50 0.6655695
1177.50 0.6556347
1182.50 0.6493111
1187.50 0.6420751
1192.50 0.6486805
1197.50 0.6306698
1202.50 0.6371129
1207.50 0.6310453
1212.50 0.6313048
1217.50 0.6287269
1222.50 0.6246759
1227.50 0.6197948
1232.50 0.6169461
1237.50 0.6133457
1242.50 0.608915
1247.50 0.60623
1252.50 0.6016029
1257.50 0.5990068
1262.50 0.5950321
1267.50 0.5908895
1272.50 0.5887504
1277.50 0.5857666
1282.50 0.5768898
1287.50 0.5772158
1292.50 0.5728603
1297.50 0.5724581
1302.50 0.5688486
1307.50 0.5665463
1312.50 0.5581643
1317.50 0.5563369
1322.50 0.5571476
1327.50 0.5511242
1332.50 0.5495351
1337.50 0.5476214
1342.50 0.5462047
1347.50 0.5432713
1352.50 0.540657
1357.50 0.5357816
1362.50 0.5316502
1367.50 0.5319316
1372.50 0.5303885
1377.50 0.5273297
1382.50 0.5253136
1387.50 0.5204849
1392.50 0.5207021
1397.50 0.51842
1402.50 0.5134869
1407.50 0.5138062
1412.50 0.5101218
1417.50 0.5095563
1422.50 0.5050451
1427.50 0.4993219
1432.50 0.5019253
1437.50 0.5011258
1442.50 0.4943874
1447.50 0.4968848
1452.50 0.4922805
1457.00 0.4905265
1462.00 0.4911866
1467.50 0.4887559
1472.50 0.4844418
1477.50 0.484091
1482.50 0.4822342
1487.50 0.475288
1492.50 0.4801852
1497.50 0.4764623
1502.50 0.4631041
1507.50 0.4667841
1512.50 0.4725247
1517.50 0.4706257
1522.50 0.4674846
1527.50 0.4666985
1532.50 0.4647629
1537.50 0.4639221
1542.50 0.4636363
1547.50 0.4615332
1552.50 0.4580357
1557.50 0.4563883
1562.50 0.4550922
1567.50 0.4517608
1572.50 0.4499933
1577.50 0.4408045
1582.50 0.4449016
1587.50 0.4394454
1592.50 0.4426354
1597.50 0.4402606
1605.00 0.4376251
1615.00 0.4317332
1625.00 0.4277404
1635.00 0.4215537
1645.00 0.4131827
1655.00 0.4075136
1665.00 0.3993041
1675.00 0.3893508
1685.00 0.3828632
1695.00 0.3774633
1705.00 0.3685497
1715.00 0.3607721
1725.00 0.354779
1735.00 0.3472396
1745.00 0.341595
1755.00 0.3357386
1765.00 0.3296036
1775.00 0.3231801
1785.00 0.3176403
1795.00 0.3116558
1805.00 0.3056274
1815.00 0.299267
1825.00 0.2943491
1835.00 0.2890213
1845.00 0.282692
1855.00 0.2786697
1865.00 0.2727118
1875.00 0.263544
1885.00 0.2633826
1895.00 0.2565655
1905.00 0.2543419
1915.00 0.2493614
1925.00 0.2452623
1935.00 0.239735
1945.00 0.2339315
1955.00 0.2318561
1965.00 0.22823
1975.00 0.2222174
1985.00 0.219099
1995.00 0.2160317
2005.00 0.2134748
2015.00 0.2099576
2025.00 0.2057783
2035.00 0.2021896
2045.00 0.1993628
2055.00 0.1959215
2065.00 0.1921385
2075.00 0.1891896
2085.00 0.1861563
2095.00 0.182484
2105.00 0.1800681
2115.00 0.1770097
2125.00 0.1741421
2135.00 0.1714228
2145.00 0.1686173
2155.00 0.1659067
2165.00 0.1623768
2175.00 0.1602758
2185.00 0.1577386
2195.00 0.1553953
2205.00 0.1519946
2215.00 0.1505863
2225.00 0.1477066
2235.00 0.1455916
2245.00 0.1433904
2255.00 0.1412766
2265.00 0.138776
2275.00 0.1369505
2285.00 0.1345122
2295.00 0.1284289
